Folder: papers-code-preplated-nanopores-scattering/data

Note: data/f4.txt
;1K, E=[-0.1,0.05] meV
;      x      y      dy      
      1.00924       45.2222        19.5572
      1.04749       23.9752        16.0151
      1.09447       41.4207        15.3368
      1.14171       23.5388        16.6981
      1.19484       55.3992        13.4488
      1.24803       7.12366        15.9384
      1.28824       28.9842        18.2884
      1.34583       7.75731        20.7572
      1.39965      -3.12366        25.9205
      1.44237       16.1993        26.0692
      1.49482       17.1278        20.8240
      1.54711       41.8295        27.0792
      1.59577       2.31231        24.1269
      1.64616       8.86541        25.1431
      1.69249       35.7950        25.4396
      1.74403      -9.18797        22.4388
      1.79537       40.5995        26.8268
      1.84649       75.9085        21.3865
      1.89740       20.3426        22.4078
      1.94646       105.650        21.6593
      1.99599       39.5598        24.3115
      2.04712       60.5215        21.1808
      2.09621       53.9376        21.8116
      2.14681       44.5124        18.6093
      2.19542       84.6571        21.4654
      2.24707       39.4347        18.0733
      2.29601       51.0909        21.5034
      2.34466       37.1709        15.7323
      2.39542       55.6572        20.3020
      2.44271       69.2656        17.8548
      2.49689      -1.95859        16.4716
      2.54361       64.5140        19.5329
      2.59231       55.4707        17.4222
      2.64736       35.4361        18.1461
      2.69704       20.8722        19.8703
      2.74129       49.5955        18.9340
      2.79201       68.8512        20.1924
      2.84543       27.6324        20.3015
      2.89837       19.8499        18.6202
      2.94934       28.6450        20.9038
      2.99604       36.1177        21.6713
      3.04404       34.4706        19.2826
      3.09332       13.2324        36.0202
      3.14235       86.7737        30.5825
      3.19244       24.0499        19.4079
      3.24373       2.97434        17.0320
      3.29429       22.4795        19.1314
      3.34435       39.4957        18.0646
      3.39534       6.36776        16.6766
      3.44571       32.4238        17.0632
      3.48636       19.9066        22.0765

Note: data/f6.txt
;1K, E=[-0.1,0.05] meV
;      x      y      dy      
      1.00924       37.8515        17.8472
      1.04749       13.3645        14.6276
      1.09447       43.4822        14.0049
      1.14171       31.8615        15.2658
      1.19484       41.6406        12.2628
      1.24803       10.0726        14.5797
      1.28824       9.49402        16.6919
      1.34583       21.5288        18.9954
      1.39965       7.01063        23.7280
      1.44237       29.1881        23.8475
      1.49482       23.3626        19.0437
      1.54711       45.6246        24.7412
      1.59577      -10.4426        22.0650
      1.64616      -9.92152        22.9848
      1.69249       24.0277        23.2316
      1.74403      -39.7853        20.5186
      1.79537       20.4168        24.4923
      1.84649       62.7345        19.5002
      1.89740       32.0753        20.4907
      1.94646       96.0441        19.7236
      1.99599       29.2502        22.1994
      2.04712       73.6007        19.3378
      2.09621       57.7028        19.9039
      2.14681       63.3051        16.9994
      2.19542       82.3866        19.5485
      2.24707       47.3449        16.5064
      2.29601       57.7922        19.6221
      2.34466       43.8794        14.3610
      2.39542       53.3663        18.5113
      2.44271       71.2848        16.2689
      2.49689       12.1276        15.0859
      2.54361       39.8527        17.7726
      2.59231       57.5007        15.8891
      2.64736       17.6000        16.5569
      2.69704       20.7311        18.1590
      2.74129       44.1384        17.2691
      2.79201       49.6029        18.4053
      2.84543       35.8440        18.5582
      2.89837       18.8069        17.0185
      2.94934       16.5949        19.0933
      2.99604       17.4802        19.7825
      3.04404       24.3307        17.6058
      3.09332       27.6645        32.9569
      3.14235       103.426        27.9424
      3.19244       25.8058        17.7383
      3.24373      -5.04841        15.5748
      3.29429       27.9037        17.4891
      3.34435       41.5763        16.4958
      3.39534      -7.11197        15.2422
      3.44571       11.2282        15.5663
      3.48636       26.4965        20.1831

Note: data/f9.txt
;1 K, E=[-0.1,0.1] meV
;      x      y      dy      
      1.00969       41.0151        18.5852
      1.04718       28.6795        14.8466
      1.09415       33.7094        14.2251
      1.14137       36.3720        15.4838
      1.19458       40.8389        12.4282
      1.24783       34.0840        14.7691
      1.28786       3.57169        16.9627
      1.34543       20.9639        19.2661
      1.39924      -18.8935        23.9590
      1.44195       14.7429        24.3136
      1.49438       12.0260        19.2898
      1.54665       75.3245        25.1265
      1.59588      -9.53437        22.0818
      1.64645      -4.75440        23.5429
      1.69199       33.8977        23.6703
      1.74351      -15.2972        20.6963
      1.79484       2.87922        24.8526
      1.84594       66.3455        19.8529
      1.89684       44.8093        20.8431
      1.94614       76.4923        20.0004
      1.99584       60.0624        22.6573
      2.04677       107.850        19.5507
      2.09602       68.6776        20.4476
      2.14642       111.054        17.2640
      2.19520       109.136        20.1663
      2.24641       55.4426        16.8594
      2.29533       85.6432        20.0085
      2.34397       35.4791        14.6834
      2.39606       39.4214        18.4191
      2.44317       61.5841        16.8904
      2.49639       28.4889        15.1680
      2.54513       50.7781        17.6704
      2.59285       54.1779        16.5820
      2.64658       23.4493        16.8587
      2.69707       44.0697        18.0468
      2.74316       66.7275        17.5925
      2.79248       62.5700        19.1998
      2.84459       35.6252        18.8073
      2.89752       20.5128        17.2278
      2.94868       53.1811        19.2829
      2.99631       2.89960        19.8090
      3.04485       36.9240        17.7116
      3.09446       37.5381        34.1025
      3.14365       87.7986        27.3902
      3.19371       34.0326        17.9390
      3.24462      -2.66867        15.7436
      3.29494       40.0475        17.7379
      3.34468       35.6675        16.8155
      3.39515      -6.19719        15.4606
      3.44501       30.0433        15.9076
      3.48533       16.6959        20.4984

File: Sokol_Ar_MCM41_Isotherm.dat
#      P/P0	Ar/MCM-41 nsorb [mmol/g]
0	        0
0.00566005  0.0909091
0.00200279  0.363636
0.00221177  0.909091
0.00245559  1.54545
0.00266458  2.09091
0.00282132  2.5
0.00687914  3.09091
0.0244688  4
0.0400383  4.63636
0.0536747  5.22727
0.0634274  5.68182
0.0769941  6.09091
0.0924591  6.45455
0.104075  6.77273
0.123389  7.18182
0.136956  7.59091
0.160101  8
0.181331  8.40909
0.19488  8.77273
0.204615  9.18182
0.212365  9.40909
0.225897  9.72727
0.235632  10.1364
0.247301  10.5909
0.253117  10.7727
0.257071  11.0909
0.268791  11.6818
0.268913  12
0.284413  12.4545
0.284674  13.1364
0.288593  13.3636
0.290648  13.7273
0.300418  14.2273
0.30054  14.5455
0.310362  15.1818
0.312487  15.7273
0.318548  16.5455
0.322553  17
0.324643  17.4545
0.332463  17.8636
0.344131  18.3182
0.359631  18.7727
0.378892  19.0455
0.398137  19.2727
0.40775  19.3636
0.440509  19.8636
0.476924  19.9091
0.570916  20.2273
0.638001  20.3182
0.751132  20.5909
0.802891  20.6818
0.900714  21
0.929415  20.9091
0.967729  20.9091
0.975496  21.1818
0.992912  21.6364
0.998746  21.8636
1.00084  22.3182
1.00873  22.9091

File: Sokol_He_Ar_MCM41_Isotherm.dat
#      P/P0	4He/Ar/MCM-41 nsorb [mmol/g]
0	        0
0.000136054	1.71754
0.000272109	3.11488
0.000272109	3.99542
0.000272109	5.03605
0.000272109	6.08512
0.002993197	7.03443
0.005442177	7.44307
0.008163265	7.80255
0.0121088	8.17886
0.0185034	8.53829
0.0244898	8.88509
0.0266667	8.97634
0.0340136	9.27116
0.0378231	9.40452
0.05170068	9.82564
0.06585034	10.1681
0.0855782	10.5877
0.105986	10.9666
0.147075	11.6079
0.18449	12.068
0.21551	12.3414
0.24381	12.525
0.277551	12.6776
0.320272	12.7964
0.377687	12.8813
0.433741	12.9254
0.509524	12.9764
0.588844	13.0244
0.674422	12.9867
0.748707	13.091
0.818503	13.2628
0.881905	13.5049
0.887075	14.3489
0.917551	14.6827
0.940408	15.0784
0.986259	17.2503
0.991701	19.7388